{
  "id": "02-practitioner",
  "resourceType": "Practitioner",
  "meta": {},
  "contained": [
    {
      "resourceType": "Slot",
      "id": "02-new-slot",
      "schedule": {
        "reference": "Schedule/02-new-schedule"
      },
      "serviceType": [
        {
          "coding": [
            {
              "system": "http://medstarhealth.org",
              "code": "NEW"
            }
          ]
        }
      ],
      "start": "2020-05-04T06:00:00.000+08:00",
      "end": "2020-05-04T07:00:00.000+08:00"
    },
    {
      "resourceType": "Slot",
      "id": "02-existing-slot",
      "schedule": {
        "reference": "Schedule/02-existing-schedule"
      },
      "serviceType": [
        {
          "coding": [
            {
              "system": "http://medstarhealth.org",
              "code": "EXISTING"
            }
          ]
        }
      ],
      "start": "2020-11-04T14:00:00.000+08:00",
      "end": "2020-11-04T15:00:00.000+08:00"
    },
    {
      "resourceType": "Schedule",
      "id": "02-new-schedule",
      "meta": {
        "versionId": "1",
        "lastUpdated": "2021-05-03T15:13:27+00:00"
      },
      "actor": [
        {
          "reference": "PractitionerRole/01-role"
        }
      ]
    },
    {
      "resourceType": "Schedule",
      "id": "02-new-schedule",
      "meta": {
        "versionId": "1",
        "lastUpdated": "2021-05-03T15:13:27+00:00"
      },
      "actor": [
        {
          "reference": "PractitionerRole/01-role"
        }
      ]
    },
    {
      "resourceType": "PractitionerRole",
      "id": "02-role",
      "meta": {
        "versionId": "1",
        "lastUpdated": "2021-05-03T14:54:47+00:00"
      },
      "practitioner": {
        "reference": "Practitioner/02-practitioner"
      }
    }
  ]
}
