[
  {
    "resourceType": "Bundle",
    "id": "bundle-example",
    "entry": [
      {
        "link": "https://localhost:3000/4_0_0/Practitioner/1457320939",
        "resource": {
          "resourceType": "Practitioner",
          "id": "1457320939",
          "meta": {
            "versionId": "2",
            "lastUpdated": "2021-01-11T20:12:14+00:00",
            "source": "http://medstarhealth.org/provider_headshots"
          },
          "identifier": [
            {
              "use": "usual",
              "type": {
                "coding": [
                  {
                    "system": "http://terminology.hl7.org/CodeSystem/v2-0203",
                    "code": "PRN"
                  }
                ]
              },
              "system": "http://medstarhealth.org",
              "value": "303004"
            },
            {
              "use": "official",
              "type": {
                "coding": [
                  {
                    "system": "http://terminology.hl7.org/CodeSystem/v2-0203",
                    "code": "NPI"
                  }
                ]
              },
              "system": "http://hl7.org/fhir/sid/us-npi",
              "value": "1457320939"
            }
          ],
          "active": true,
          "name": [
            {
              "use": "usual",
              "text": "MICHAEL X DWYER MD",
              "family": "DWYER",
              "given": [
                "MICHAEL X",
                "X"
              ]
            }
          ],
          "telecom": [
            {
              "system": "email",
              "value": "michael.dwyer@direct.medstar.net",
              "use": "work"
            }
          ],
          "gender": "male",
          "photo": [
            {
              "contentType": "image/jpg",
              "url": "https://uep.medstarhealth.org/content/uploads/profile_images/Michael-X-Dwyer-MFSMC_jpg.jpg",
              "title": "Practitioner headshot: Michael Dwyer - 1457320939"
            }
          ],
          "qualification": [
            {
              "code": {
                "coding": [
                  {
                    "system": "http://terminology.hl7.org/ValueSet/v2-2.7-030",
                    "code": "MD"
                  }
                ]
              }
            },
            {
              "code": {
                "coding": [
                  {
                    "system": "http://terminology.hl7.org/ValueSet/v2-2.7-030",
                    "code": "MD"
                  }
                ]
              },
              "period": {
                "start": "2002-01-01",
                "end": "2021-02-15"
              },
              "issuer": {
                "reference": "Organization/MedStar_Franklin_Square_Medical_Center"
              }
            }
          ],
          "communication": [
            {
              "coding": [
                {
                  "system": "urn:ietf:bcp:47",
                  "code": "en"
                }
              ]
            }
          ]
        }
      },
      {
        "link": "https://localhost:3000/4_0_0/PractitionerRole/1457320939-FA2-FFHC",
        "resource": {
          "resourceType": "PractitionerRole",
          "id": "1457320939-FA2-FFHC",
          "meta": {
            "versionId": "1",
            "lastUpdated": "2021-01-11T20:11:41+00:00",
            "source": "http://medstarhealth.org/provider"
          },
          "practitioner": {
            "reference": "Practitioner/1457320939"
          },
          "organization": {
            "reference": "Organization/Medstar-Alias-FA2-FFHC"
          },
          "code": [
            {
              "coding": [
                {
                  "system": "http://terminology.hl7.org/CodeSystem/practitioner-role",
                  "code": "doctor",
                  "display": "Doctor"
                }
              ],
              "text": "Doctor"
            }
          ],
          "specialty": [
            {
              "coding": [
                {
                  "system": "https://www.http://medstarhealth.org",
                  "code": "Family Medicine",
                  "display": "Family Medicine"
                }
              ],
              "text": "Family Medicine"
            },
            {
              "coding": [
                {
                  "system": "http://nucc.org/provider-taxonomy",
                  "code": "207Q00000X",
                  "display": "Family Medicine"
                }
              ],
              "text": "Family Medicine"
            },
            {
              "coding": [
                {
                  "system": "http://nucc.org/provider-taxonomy",
                  "code": "261QP2300X",
                  "display": "Primary Care"
                }
              ],
              "text": "Primary Care"
            }
          ],
          "location": [
            {
              "reference": "Location/Medstar-Alias-FA2-FFHC"
            }
          ]
        }
      }
    ]
  },
  {
    "resourceType": "Bundle",
    "id": "bundle-example",
    "entry": [
      {
        "link": "https://localhost:3000/4_0_0/Practitioner/1457320939",
        "resource": {
          "resourceType": "Practitioner",
          "id": "1457320940",
          "meta": {
            "versionId": "2",
            "lastUpdated": "2021-01-11T20:12:14+00:00",
            "source": "http://medstarhealth.org/provider_headshots"
          },
          "identifier": [
            {
              "use": "usual",
              "type": {
                "coding": [
                  {
                    "system": "http://terminology.hl7.org/CodeSystem/v2-0203",
                    "code": "PRN"
                  }
                ]
              },
              "system": "http://medstarhealth.org",
              "value": "303004"
            },
            {
              "use": "official",
              "type": {
                "coding": [
                  {
                    "system": "http://terminology.hl7.org/CodeSystem/v2-0203",
                    "code": "NPI"
                  }
                ]
              },
              "system": "http://hl7.org/fhir/sid/us-npi",
              "value": "1457320939"
            }
          ],
          "active": true,
          "name": [
            {
              "use": "usual",
              "text": "MICHAEL X DWYER MD",
              "family": "DWYER",
              "given": [
                "MICHAEL X",
                "X"
              ]
            }
          ],
          "telecom": [
            {
              "system": "email",
              "value": "michael.dwyer@direct.medstar.net",
              "use": "work"
            }
          ],
          "gender": "male",
          "photo": [
            {
              "contentType": "image/jpg",
              "url": "https://uep.medstarhealth.org/content/uploads/profile_images/Michael-X-Dwyer-MFSMC_jpg.jpg",
              "title": "Practitioner headshot: Michael Dwyer - 1457320939"
            }
          ],
          "qualification": [
            {
              "code": {
                "coding": [
                  {
                    "system": "http://terminology.hl7.org/ValueSet/v2-2.7-030",
                    "code": "MD"
                  }
                ]
              }
            },
            {
              "code": {
                "coding": [
                  {
                    "system": "http://terminology.hl7.org/ValueSet/v2-2.7-030",
                    "code": "MD"
                  }
                ]
              },
              "period": {
                "start": "2002-01-01",
                "end": "2021-02-15"
              },
              "issuer": {
                "reference": "Organization/MedStar_Franklin_Square_Medical_Center"
              }
            }
          ],
          "communication": [
            {
              "coding": [
                {
                  "system": "urn:ietf:bcp:47",
                  "code": "en"
                }
              ]
            }
          ]
        }
      },
      {
        "link": "https://localhost:3000/4_0_0/Organization/Medstar-Alias-FA2-FFHC",
        "resource": {
          "resourceType": "Organization",
          "id": "Medstar-Alias-FA2-FFHC",
          "meta": {
            "versionId": "1",
            "lastUpdated": "2021-01-11T20:13:28+00:00",
            "source": "http://medstarhealth.org/practice"
          },
          "extension": [
            {
              "extension": [
                {
                  "url": "https://raw.githubusercontent.com/imranq2/SparkAutoMapper.FHIR/main/StructureDefinition/longitude",
                  "valueDecimal": -76.45052
                },
                {
                  "url": "https://raw.githubusercontent.com/imranq2/SparkAutoMapper.FHIR/main/StructureDefinition/latitude",
                  "valueDecimal": 39.406216
                }
              ],
              "url": "https://raw.githubusercontent.com/imranq2/SparkAutoMapper.FHIR/main/StructureDefinition/position"
            }
          ],
          "identifier": [
            {
              "use": "usual",
              "system": "http://medstarhealth.org",
              "value": "MedStar Family Health Center at MFSMC"
            }
          ],
          "active": true,
          "type": [
            {
              "coding": [
                {
                  "system": "http://terminology.hl7.org/CodeSystem/organization-type",
                  "code": "prov",
                  "display": "Healthcare Provider"
                }
              ],
              "text": "Healthcare Organization"
            },
            {
              "coding": [
                {
                  "system": "http://terminology.hl7.org/CodeSystem/organization-type",
                  "code": "",
                  "display": "Emergency Room"
                }
              ],
              "text": "ER Indicator"
            }
          ],
          "name": "MedStar Family Health Center at Franklin Square Medical Center",
          "alias": [
            "MedStar Family Health Center at MFSMC"
          ],
          "telecom": [
            {
              "system": "phone",
              "value": "(443) 777-2000"
            },
            {
              "system": "fax",
              "value": "(866) 857-9388"
            }
          ],
          "address": [
            {
              "line": [
                "9101 Franklin Square Drive",
                "Suite 300"
              ],
              "city": "Baltimore",
              "state": "MD",
              "postalCode": "21237"
            }
          ],
          "partOf": {
            "reference": "Organization/Medstar-Org-MedStar_Family_Health_Center_at_Franklin_Square_Med",
            "display": "MedStar Family Health Center at Franklin Square Medical Cntr"
          },
          "contact": [
            {
              "purpose": {
                "coding": [
                  {
                    "system": "http://medstarhealth.org",
                    "code": "Central Scheduling"
                  }
                ]
              }
            }
          ]
        }
      },
      {
        "link": "https://localhost:3000/4_0_0/Location/Medstar-Alias-FA2-FFHC",
        "resource": {
          "resourceType": "Location",
          "id": "Medstar-Alias-FA2-FFHC",
          "meta": {
            "versionId": "1",
            "lastUpdated": "2021-01-11T20:13:13+00:00",
            "source": "http://medstarhealth.org/practice"
          },
          "identifier": [
            {
              "type": {
                "coding": [
                  {
                    "system": "http://medstarhealth.org",
                    "code": "alias"
                  }
                ],
                "text": "Facility ID"
              },
              "system": "http://medstarhealth.org",
              "value": "FA2-FFHC"
            },
            {
              "type": {
                "coding": [
                  {
                    "system": "http://terminology.hl7.org/CodeSystem/v2-0203",
                    "code": "FI"
                  }
                ],
                "text": "Facility Identifier"
              },
              "system": "http://medstarhealth.org",
              "value": "FA2"
            },
            {
              "type": {
                "coding": [
                  {
                    "system": "http://terminology.hl7.org/CodeSystem/v2-0203",
                    "code": "XX"
                  }
                ],
                "text": "Organization Identifier"
              },
              "system": "http://medstarhealth.org",
              "value": "3026"
            },
            {
              "type": {
                "coding": [
                  {
                    "system": "http://terminology.hl7.org/CodeSystem/v2-0203",
                    "code": "DepartmentName"
                  }
                ],
                "text": "Scheduling Department Name"
              },
              "system": "http://medstarhealth.org",
              "value": "Family Health Center - MFSH"
            },
            {
              "type": {
                "coding": [
                  {
                    "system": "http://terminology.hl7.org/CodeSystem/v2-0203",
                    "code": "DeptMnem"
                  }
                ],
                "text": "Scheduling Department Mnem"
              },
              "system": "http://medstarhealth.org",
              "value": "FFHC"
            },
            {
              "type": {
                "coding": [
                  {
                    "system": "http://terminology.hl7.org/CodeSystem/v2-0203",
                    "code": "DeptNo"
                  }
                ],
                "text": "Scheduling Department Number"
              },
              "system": "http://medstarhealth.org",
              "value": "3030"
            }
          ],
          "status": "active",
          "name": "FSH Medical Arts-2Nd Fl",
          "description": "Baltimore Region",
          "mode": "instance",
          "type": [
            {
              "coding": [
                {
                  "system": "http://medstarhealth.org",
                  "code": "Primary Care and Student Health",
                  "display": "Primary Care and Student Health"
                }
              ],
              "text": "practice speciality"
            },
            {
              "coding": [
                {
                  "system": "http://terminology.hl7.org/CodeSystem/v3-RoleCode",
                  "code": "",
                  "display": "ER Indicator"
                }
              ],
              "text": "ER Indicator"
            }
          ],
          "telecom": [
            {
              "system": "phone",
              "value": "(443) 777-2000",
              "rank": 2
            },
            {
              "system": "fax",
              "value": "(866) 857-9388",
              "rank": 3
            }
          ],
          "address": {
            "line": [
              "3305 NORTH LEISURE WORLD BLVD"
            ],
            "city": "SILVER SPRING",
            "state": "MD",
            "postalCode": "20906"
          },
          "physicalType": {
            "coding": [
              {
                "system": "http://terminology.hl7.org/CodeSystem/location-physical-type",
                "code": "bu"
              }
            ]
          },
          "position": {
            "longitude": -76.45052,
            "latitude": 39.406216
          },
          "managingOrganization": {
            "reference": "Organization/Medstar-Alias-FA2-FFHC"
          },
          "hoursOfOperation": [
            {
              "daysOfWeek": [
                "mon"
              ],
              "openingTime": "8:00",
              "closingTime": "8:00"
            },
            {
              "daysOfWeek": [
                "tues"
              ],
              "openingTime": "8:00",
              "closingTime": "8:00"
            },
            {
              "daysOfWeek": [
                "wed"
              ],
              "openingTime": "8:00",
              "closingTime": "8:00"
            },
            {
              "daysOfWeek": [
                "thursday"
              ],
              "openingTime": "8:00",
              "closingTime": "8:00"
            },
            {
              "daysOfWeek": [
                "fri"
              ],
              "openingTime": "8:00",
              "closingTime": "4:30"
            },
            {
              "daysOfWeek": [
                "sat"
              ],
              "openingTime": "",
              "closingTime": ""
            }
          ]
        }
      }
    ]
  }
]